location,target,cue_ind,soa,screen_calib_routine.thisRepN,screen_calib_routine.thisTrialN,screen_calib_routine.thisN,screen_calib_routine.thisIndex,trials.thisRepN,trials.thisTrialN,trials.thisN,trials.thisIndex,text_welcome.started,text_welcome.stopped,key_resp.keys,key_resp.rt,key_resp.started,key_resp.stopped,trial_type,text_4.started,text_4.stopped,screen_calib_circle_2.started,screen_calib_circle_2.stopped,calib_start.started,calib_start.stopped,screen_calib_circle.started,screen_calib_circle.stopped,text_5.started,text_5.stopped,sound_2.started,sound_2.stopped,key_resp_6.keys,key_resp_6.rt,key_resp_6.started,key_resp_6.stopped,text_7.started,text_7.stopped,keep_trial,text_instr_2.started,text_instr_2.stopped,soa_actual,key_resp_3.keys,key_resp_3.rt,key_resp_4.keys,key_resp_4.rt,key_resp_4.started,key_resp_4.stopped,text_2.started,text_2.stopped,participant,expVersion,age,sex,date,expName,psychopyVersion,frameRate,
,,,,,,,,,,,,56.90640859999985,None,space,33.50792430000001,56.90640859999985,None,,,,,,,,,,,,,,,,,,,,,,,,,,,,,,,,1,tathum,21,M,2022-10-31_16h11.04.524,GazeCueingPsychoPy,2022.1.3,60.5933176479181,
1,,,,0,0,0,0,,,,,,,,,,,calibration,91.14049979999982,None,91.14049979999982,None,91.14049979999982,None,96.37394119999954,None,96.37394119999954,None,96.37407371999761,None,space,4.389221199999156,96.37394119999954,None,101.34075360000134,None,True,,,,,,,,,,,,1,tathum,21,M,2022-10-31_16h11.04.524,GazeCueingPsychoPy,2022.1.3,60.5933176479181,
2,,,,0,1,1,1,,,,,,,,,,,calibration,113.0076267000004,None,113.0076267000004,None,113.0076267000004,None,115.20770700000139,None,115.20770700000139,None,115.20781481999693,115.31001689999903,space,4.057820100002573,115.20770700000139,None,119.84116229999927,None,True,,,,,,,,,,,,1,tathum,21,M,2022-10-31_16h11.04.524,GazeCueingPsychoPy,2022.1.3,60.5933176479181,
3,,,,0,2,2,2,,,,,,,,,,,calibration,128.99136369999906,None,128.99136369999906,None,128.99136369999906,None,149.82516849999956,None,149.82516849999956,None,149.82525081999736,None,space,2.2415581999994174,149.82516849999956,None,152.6252158999996,None,True,,,,,,,,,,,,1,tathum,21,M,2022-10-31_16h11.04.524,GazeCueingPsychoPy,2022.1.3,60.5933176479181,
4,,,,0,3,3,3,,,,,,,,,,,calibration,156.25861689999874,None,156.25861689999874,None,156.25861689999874,None,157.42529650000142,None,157.42529650000142,None,157.42711051999757,None,space,1.5043050999993284,157.42529650000142,None,159.49232610000035,None,True,,,,,,,,,,,,1,tathum,21,M,2022-10-31_16h11.04.524,GazeCueingPsychoPy,2022.1.3,60.5933176479181,
,2,1,1100,,,,,0,0,0,11,,,,,,,,,,,,,,,,,,,,,,,,,,True,163.52947309999945,None,1.116680399998586,space,41.874314500000764,,,,,,,1,tathum,21,M,2022-10-31_16h11.04.524,GazeCueingPsychoPy,2022.1.3,60.5933176479181,
,2,2,1100,,,,,0,1,1,15,,,,,,,,,,,,,,,,,,,,,,,,,,True,,,1.1166675999993458,space,0.5793669999984559,,,,,,,1,tathum,21,M,2022-10-31_16h11.04.524,GazeCueingPsychoPy,2022.1.3,60.5933176479181,
,1,2,350,,,,,0,2,2,5,,,,,,,,,,,,,,,,,,,,,,,,,,True,,,0.36668139999892446,space,2.6741887999996834,,,,,,,1,tathum,21,M,2022-10-31_16h11.04.524,GazeCueingPsychoPy,2022.1.3,60.5933176479181,
,1,2,100,,,,,0,3,3,4,,,,,,,,,,,,,,,,,,,,,,,,,,True,,,0.11665569999968284,space,0.7687998000001244,,,,,,,1,tathum,21,M,2022-10-31_16h11.04.524,GazeCueingPsychoPy,2022.1.3,60.5933176479181,
,1,2,1100,,,,,0,4,4,7,,,,,,,,,,,,,,,,,,,,,,,,,,False,,,1.1166668000005302,space,12.228419699997175,,,,,,,1,tathum,21,M,2022-10-31_16h11.04.524,GazeCueingPsychoPy,2022.1.3,60.5933176479181,
,2,1,350,,,,,0,5,5,9,,,,,,,,,,,,,,,,,,,,,,,,,,True,,,0.3666908000013791,space,1.521106399999553,,,,,,,1,tathum,21,M,2022-10-31_16h11.04.524,GazeCueingPsychoPy,2022.1.3,60.5933176479181,
,1,1,350,,,,,0,6,6,1,,,,,,,,,,,,,,,,,,,,,,,,,,True,,,0.36671080000087386,space,0.9468956999990041,,,,,,,1,tathum,21,M,2022-10-31_16h11.04.524,GazeCueingPsychoPy,2022.1.3,60.5933176479181,
,2,2,350,,,,,0,7,7,13,,,,,,,,,,,,,,,,,,,,,,,,,,True,,,0.36667019999731565,space,0.7169171000023198,,,,,,,1,tathum,21,M,2022-10-31_16h11.04.524,GazeCueingPsychoPy,2022.1.3,60.5933176479181,
,1,1,100,,,,,0,8,8,0,,,,,,,,,,,,,,,,,,,,,,,,,,True,,,0.1166668000005302,space,0.18014250000123866,,,,,,,1,tathum,21,M,2022-10-31_16h11.04.524,GazeCueingPsychoPy,2022.1.3,60.5933176479181,
,1,2,850,,,,,0,9,9,6,,,,,,,,,,,,,,,,,,,,,,,,,,True,,,0.866695400000026,space,0.9258371999967494,,,,,,,1,tathum,21,M,2022-10-31_16h11.04.524,GazeCueingPsychoPy,2022.1.3,60.5933176479181,
,1,1,1100,,,,,0,10,10,3,,,,,,,,,,,,,,,,,,,,,,,,,,False,,,1.1166862000027322,space,3.537001100001362,,,,,,,1,tathum,21,M,2022-10-31_16h11.04.524,GazeCueingPsychoPy,2022.1.3,60.5933176479181,
,2,2,100,,,,,0,11,11,12,,,,,,,,,,,,,,,,,,,,,,,,,,True,,,0.11669900000197231,space,1.0114071999996668,,,,,,,1,tathum,21,M,2022-10-31_16h11.04.524,GazeCueingPsychoPy,2022.1.3,60.5933176479181,
,2,1,100,,,,,0,12,12,8,,,,,,,,,,,,,,,,,,,,,,,,,,True,,,0.11671059999935096,space,1.5163054000004195,,,,,,,1,tathum,21,M,2022-10-31_16h11.04.524,GazeCueingPsychoPy,2022.1.3,60.5933176479181,
,2,2,850,,,,,0,13,13,14,,,,,,,,,,,,,,,,,,,,,,,,,,True,,,0.8666606000006141,space,0.8456913999980316,,,,,,,1,tathum,21,M,2022-10-31_16h11.04.524,GazeCueingPsychoPy,2022.1.3,60.5933176479181,
,2,1,850,,,,,0,14,14,10,,,,,,,,,,,,,,,,,,,,,,,,,,True,,,0.8666979999979958,space,0.6130627000020468,,,,,,,1,tathum,21,M,2022-10-31_16h11.04.524,GazeCueingPsychoPy,2022.1.3,60.5933176479181,
,1,1,850,,,,,0,15,15,2,,,,,,,,,,,,,,,,,,,,,,,,,,True,,,0.8666391000006115,space,0.7722350000003644,,,,,,,1,tathum,21,M,2022-10-31_16h11.04.524,GazeCueingPsychoPy,2022.1.3,60.5933176479181,
,2,2,850,,,,,1,0,16,14,,,,,,,,,,,,,,,,,,,,,,,,,,True,,,0.8666960000009567,space,0.5578860999994504,,,,,,,1,tathum,21,M,2022-10-31_16h11.04.524,GazeCueingPsychoPy,2022.1.3,60.5933176479181,
,1,2,850,,,,,1,1,17,6,,,,,,,,,,,,,,,,,,,,,,,,,,True,,,0.8667123999985051,space,0.17669699999896693,,,,,,,1,tathum,21,M,2022-10-31_16h11.04.524,GazeCueingPsychoPy,2022.1.3,60.5933176479181,
,1,1,1100,,,,,1,2,18,3,,,,,,,,,,,,,,,,,,,,,,,,,,True,,,1.1166343000004417,space,0.6503665000018373,,,,,,,1,tathum,21,M,2022-10-31_16h11.04.524,GazeCueingPsychoPy,2022.1.3,60.5933176479181,
,1,2,100,,,,,1,3,19,4,,,,,,,,,,,,,,,,,,,,,,,,,,True,,,0.11668419999841717,space,0.6277324000002409,,,,,,,1,tathum,21,M,2022-10-31_16h11.04.524,GazeCueingPsychoPy,2022.1.3,60.5933176479181,
,2,1,1100,,,,,1,4,20,11,,,,,,,,,,,,,,,,,,,,,,,,,,True,,,1.1167161999983364,space,0.43250430000261986,,,,,,,1,tathum,21,M,2022-10-31_16h11.04.524,GazeCueingPsychoPy,2022.1.3,60.5933176479181,
,2,1,350,,,,,1,5,21,9,,,,,,,,,,,,,,,,,,,,,,,,,,False,,,0.36667690000103903,space,7.947920099999465,,,,,,,1,tathum,21,M,2022-10-31_16h11.04.524,GazeCueingPsychoPy,2022.1.3,60.5933176479181,
,2,2,100,,,,,1,6,22,12,,,,,,,,,,,,,,,,,,,,,,,,,,True,,,0.11668859999917913,space,0.8373877999983961,,,,,,,1,tathum,21,M,2022-10-31_16h11.04.524,GazeCueingPsychoPy,2022.1.3,60.5933176479181,
,1,1,850,,,,,1,7,23,2,,,,,,,,,,,,,,,,,,,,,,,,,,True,,,0.8666727000018,space,0.49702280000201426,,,,,,,1,tathum,21,M,2022-10-31_16h11.04.524,GazeCueingPsychoPy,2022.1.3,60.5933176479181,
,2,1,100,,,,,1,8,24,8,,,,,,,,,,,,,,,,,,,,,,,,,,True,,,0.11667189999934635,space,0.6644954000003054,,,,,,,1,tathum,21,M,2022-10-31_16h11.04.524,GazeCueingPsychoPy,2022.1.3,60.5933176479181,
,1,1,100,,,,,1,9,25,0,,,,,,,,,,,,,,,,,,,,,,,,,,True,,,0.11664560000281199,space,0.7538983999984339,,,,,,,1,tathum,21,M,2022-10-31_16h11.04.524,GazeCueingPsychoPy,2022.1.3,60.5933176479181,
,1,2,1100,,,,,1,10,26,7,,,,,,,,,,,,,,,,,,,,,,,,,,True,,,1.1167015999999421,space,0.7051611000024423,,,,,,,1,tathum,21,M,2022-10-31_16h11.04.524,GazeCueingPsychoPy,2022.1.3,60.5933176479181,
,1,2,350,,,,,1,11,27,5,,,,,,,,,,,,,,,,,,,,,,,,,,True,,,0.36670199999934994,space,1.3285898000031011,,,,,,,1,tathum,21,M,2022-10-31_16h11.04.524,GazeCueingPsychoPy,2022.1.3,60.5933176479181,
,2,2,1100,,,,,1,12,28,15,,,,,,,,,,,,,,,,,,,,,,,,,,True,,,1.1167124999992666,space,1.0234336000030453,,,,,,,1,tathum,21,M,2022-10-31_16h11.04.524,GazeCueingPsychoPy,2022.1.3,60.5933176479181,
,2,1,850,,,,,1,13,29,10,,,,,,,,,,,,,,,,,,,,,,,,,,True,,,0.8666494999997667,space,0.70479609999893,,,,,,,1,tathum,21,M,2022-10-31_16h11.04.524,GazeCueingPsychoPy,2022.1.3,60.5933176479181,
,2,2,350,,,,,1,14,30,13,,,,,,,,,,,,,,,,,,,,,,,,,,True,,,0.3666460999993433,space,2.256290399996942,,,,,,,1,tathum,21,M,2022-10-31_16h11.04.524,GazeCueingPsychoPy,2022.1.3,60.5933176479181,
,1,1,350,,,,,1,15,31,1,,,,,,,,,,,,,,,,,,,,,,,,,,True,,,0.36666990000230726,space,1.1649280999990879,,,,,,,1,tathum,21,M,2022-10-31_16h11.04.524,GazeCueingPsychoPy,2022.1.3,60.5933176479181,
,2,1,1100,,,,,2,0,32,11,,,,,,,,,,,,,,,,,,,,,,,,,,True,,,1.1166980000016338,space,0.772335400000884,,,,,,,1,tathum,21,M,2022-10-31_16h11.04.524,GazeCueingPsychoPy,2022.1.3,60.5933176479181,
,1,2,850,,,,,2,1,33,6,,,,,,,,,,,,,,,,,,,,,,,,,,True,,,0.8666561999998521,space,0.6673552000029304,,,,,,,1,tathum,21,M,2022-10-31_16h11.04.524,GazeCueingPsychoPy,2022.1.3,60.5933176479181,
,1,2,350,,,,,2,2,34,5,,,,,,,,,,,,,,,,,,,,,,,,,,True,,,0.36672879999969155,space,0.5272119000001112,,,,,,,1,tathum,21,M,2022-10-31_16h11.04.524,GazeCueingPsychoPy,2022.1.3,60.5933176479181,
,1,2,100,,,,,2,3,35,4,,,,,,,,,,,,,,,,,,,,,,,,,,True,,,0.11669400000027963,space,0.6107883000004222,,,,,,,1,tathum,21,M,2022-10-31_16h11.04.524,GazeCueingPsychoPy,2022.1.3,60.5933176479181,
,1,1,350,,,,,2,4,36,1,,,,,,,,,,,,,,,,,,,,,,,,,,True,,,0.3666732999990927,space,0.6781957999992301,,,,,,,1,tathum,21,M,2022-10-31_16h11.04.524,GazeCueingPsychoPy,2022.1.3,60.5933176479181,
,1,2,1100,,,,,2,5,37,7,,,,,,,,,,,,,,,,,,,,,,,,,,True,,,1.1166947999990953,space,0.4932227999997849,,,,,,,1,tathum,21,M,2022-10-31_16h11.04.524,GazeCueingPsychoPy,2022.1.3,60.5933176479181,
,2,2,100,,,,,2,6,38,12,,,,,,,,,,,,,,,,,,,,,,,,,,True,,,0.11663950000001932,space,0.6964562000030128,,,,,,,1,tathum,21,M,2022-10-31_16h11.04.524,GazeCueingPsychoPy,2022.1.3,60.5933176479181,
,2,2,850,,,,,2,7,39,14,,,,,,,,,,,,,,,,,,,,,,,,,,True,,,0.8666573999980756,space,0.7293267000022752,,,,,,,1,tathum,21,M,2022-10-31_16h11.04.524,GazeCueingPsychoPy,2022.1.3,60.5933176479181,
,2,1,850,,,,,2,8,40,10,,,,,,,,,,,,,,,,,,,,,,,,,,True,,,0.8666969999976573,space,0.05711949999749777,,,,,,,1,tathum,21,M,2022-10-31_16h11.04.524,GazeCueingPsychoPy,2022.1.3,60.5933176479181,
,1,1,100,,,,,2,9,41,0,,,,,,,,,,,,,,,,,,,,,,,,,,True,,,0.11666409999816096,space,0.6906984000015655,,,,,,,1,tathum,21,M,2022-10-31_16h11.04.524,GazeCueingPsychoPy,2022.1.3,60.5933176479181,
,2,2,1100,,,,,2,10,42,15,,,,,,,,,,,,,,,,,,,,,,,,,,True,,,1.1166982000031567,space,0.9721478999999817,,,,,,,1,tathum,21,M,2022-10-31_16h11.04.524,GazeCueingPsychoPy,2022.1.3,60.5933176479181,
,2,2,350,,,,,2,11,43,13,,,,,,,,,,,,,,,,,,,,,,,,,,True,,,0.36662929999874905,space,1.1487494000029983,,,,,,,1,tathum,21,M,2022-10-31_16h11.04.524,GazeCueingPsychoPy,2022.1.3,60.5933176479181,
,1,1,850,,,,,2,12,44,2,,,,,,,,,,,,,,,,,,,,,,,,,,True,,,0.8666857999996864,space,0.5683677999986685,,,,,,,1,tathum,21,M,2022-10-31_16h11.04.524,GazeCueingPsychoPy,2022.1.3,60.5933176479181,
,2,1,100,,,,,2,13,45,8,,,,,,,,,,,,,,,,,,,,,,,,,,True,,,0.11670500000036554,space,0.5421630000018922,,,,,,,1,tathum,21,M,2022-10-31_16h11.04.524,GazeCueingPsychoPy,2022.1.3,60.5933176479181,
,1,1,1100,,,,,2,14,46,3,,,,,,,,,,,,,,,,,,,,,,,,,,True,,,1.1167402999999467,space,0.6781377000006614,,,,,,,1,tathum,21,M,2022-10-31_16h11.04.524,GazeCueingPsychoPy,2022.1.3,60.5933176479181,
,2,1,350,,,,,2,15,47,9,,,,,,,,,,,,,,,,,,,,,,,,,,True,,,0.3667200000018056,space,1.1597651000010956,,,,,,,1,tathum,21,M,2022-10-31_16h11.04.524,GazeCueingPsychoPy,2022.1.3,60.5933176479181,
,2,1,100,,,,,3,0,48,8,,,,,,,,,,,,,,,,,,,,,,,,,,True,,,0.11664039999959641,space,1.0939926999999443,,,,,,,1,tathum,21,M,2022-10-31_16h11.04.524,GazeCueingPsychoPy,2022.1.3,60.5933176479181,
,2,2,850,,,,,3,1,49,14,,,,,,,,,,,,,,,,,,,,,,,,,,True,,,0.8667046999980812,space,0.7074966000000131,,,,,,,1,tathum,21,M,2022-10-31_16h11.04.524,GazeCueingPsychoPy,2022.1.3,60.5933176479181,
,1,1,1100,,,,,3,2,50,3,,,,,,,,,,,,,,,,,,,,,,,,,,True,,,1.1167172999994364,space,0.8047699000017019,,,,,,,1,tathum,21,M,2022-10-31_16h11.04.524,GazeCueingPsychoPy,2022.1.3,60.5933176479181,
,2,1,850,,,,,3,3,51,10,,,,,,,,,,,,,,,,,,,,,,,,,,True,,,0.8666656999994302,space,0.5646539000008488,,,,,,,1,tathum,21,M,2022-10-31_16h11.04.524,GazeCueingPsychoPy,2022.1.3,60.5933176479181,
,1,2,850,,,,,3,4,52,6,,,,,,,,,,,,,,,,,,,,,,,,,,True,,,0.8666875000017171,space,0.6172669000006863,,,,,,,1,tathum,21,M,2022-10-31_16h11.04.524,GazeCueingPsychoPy,2022.1.3,60.5933176479181,
,1,2,100,,,,,3,5,53,4,,,,,,,,,,,,,,,,,,,,,,,,,,True,,,0.11670289999892702,space,0.636498700001539,,,,,,,1,tathum,21,M,2022-10-31_16h11.04.524,GazeCueingPsychoPy,2022.1.3,60.5933176479181,
,2,2,100,,,,,3,6,54,12,,,,,,,,,,,,,,,,,,,,,,,,,,True,,,0.11662150000120164,space,0.47546409999995376,,,,,,,1,tathum,21,M,2022-10-31_16h11.04.524,GazeCueingPsychoPy,2022.1.3,60.5933176479181,
,2,2,350,,,,,3,7,55,13,,,,,,,,,,,,,,,,,,,,,,,,,,True,,,0.3666646999990917,space,0.9508792999986326,,,,,,,1,tathum,21,M,2022-10-31_16h11.04.524,GazeCueingPsychoPy,2022.1.3,60.5933176479181,
,1,2,350,,,,,3,8,56,5,,,,,,,,,,,,,,,,,,,,,,,,,,True,,,0.3666677000001073,space,0.6341744999990624,,,,,,,1,tathum,21,M,2022-10-31_16h11.04.524,GazeCueingPsychoPy,2022.1.3,60.5933176479181,
,1,1,100,,,,,3,9,57,0,,,,,,,,,,,,,,,,,,,,,,,,,,True,,,0.11670219999723486,space,1.2775442999991355,,,,,,,1,tathum,21,M,2022-10-31_16h11.04.524,GazeCueingPsychoPy,2022.1.3,60.5933176479181,
,2,1,1100,,,,,3,10,58,11,,,,,,,,,,,,,,,,,,,,,,,,,,True,,,1.1166911000000255,space,0.8558053000015207,,,,,,,1,tathum,21,M,2022-10-31_16h11.04.524,GazeCueingPsychoPy,2022.1.3,60.5933176479181,
,1,2,1100,,,,,3,11,59,7,,,,,,,,,,,,,,,,,,,,,,,,,,True,,,1.116679999999178,space,1.408049800000299,,,,,,,1,tathum,21,M,2022-10-31_16h11.04.524,GazeCueingPsychoPy,2022.1.3,60.5933176479181,
,2,1,350,,,,,3,12,60,9,,,,,,,,,,,,,,,,,,,,,,,,,,True,,,0.36665720000019064,space,0.8318570000010368,,,,,,,1,tathum,21,M,2022-10-31_16h11.04.524,GazeCueingPsychoPy,2022.1.3,60.5933176479181,
,1,1,850,,,,,3,13,61,2,,,,,,,,,,,,,,,,,,,,,,,,,,True,,,0.8667002999973192,space,1.429407399999036,,,,,,,1,tathum,21,M,2022-10-31_16h11.04.524,GazeCueingPsychoPy,2022.1.3,60.5933176479181,
,1,1,350,,,,,3,14,62,1,,,,,,,,,,,,,,,,,,,,,,,,,,True,,,0.36665809999976773,space,0.6221480999993219,,,,,,,1,tathum,21,M,2022-10-31_16h11.04.524,GazeCueingPsychoPy,2022.1.3,60.5933176479181,
,2,2,1100,,,,,3,15,63,15,,,,,,,,,,,,,,,,,,,,,,,,,,True,,,1.1166946000012103,space,0.756008300002577,,,,,,,1,tathum,21,M,2022-10-31_16h11.04.524,GazeCueingPsychoPy,2022.1.3,60.5933176479181,
,2,1,350,,,,,4,0,64,9,,,,,,,,,,,,,,,,,,,,,,,,,,True,,,0.3666771999996854,space,0.8012645999988308,,,,,,,1,tathum,21,M,2022-10-31_16h11.04.524,GazeCueingPsychoPy,2022.1.3,60.5933176479181,
,1,2,1100,,,,,4,1,65,7,,,,,,,,,,,,,,,,,,,,,,,,,,True,,,1.1166277000011178,space,0.6826041999993322,,,,,,,1,tathum,21,M,2022-10-31_16h11.04.524,GazeCueingPsychoPy,2022.1.3,60.5933176479181,
,2,2,850,,,,,4,2,66,14,,,,,,,,,,,,,,,,,,,,,,,,,,True,,,0.8666869000007864,space,0.6472700000012992,,,,,,,1,tathum,21,M,2022-10-31_16h11.04.524,GazeCueingPsychoPy,2022.1.3,60.5933176479181,
,1,1,350,,,,,4,3,67,1,,,,,,,,,,,,,,,,,,,,,,,,,,True,,,0.36667469999883906,space,1.4183864999977231,,,,,,,1,tathum,21,M,2022-10-31_16h11.04.524,GazeCueingPsychoPy,2022.1.3,60.5933176479181,
,2,2,100,,,,,4,4,68,12,,,,,,,,,,,,,,,,,,,,,,,,,,True,,,0.11671279999791295,space,1.2343387000000803,,,,,,,1,tathum,21,M,2022-10-31_16h11.04.524,GazeCueingPsychoPy,2022.1.3,60.5933176479181,
,2,1,100,,,,,4,5,69,8,,,,,,,,,,,,,,,,,,,,,,,,,,True,,,0.11667160000069998,space,0.7650394999982382,,,,,,,1,tathum,21,M,2022-10-31_16h11.04.524,GazeCueingPsychoPy,2022.1.3,60.5933176479181,
,1,1,850,,,,,4,6,70,2,,,,,,,,,,,,,,,,,,,,,,,,,,True,,,0.8666802999978245,space,0.8541694999985339,,,,,,,1,tathum,21,M,2022-10-31_16h11.04.524,GazeCueingPsychoPy,2022.1.3,60.5933176479181,
,1,1,1100,,,,,4,7,71,3,,,,,,,,,,,,,,,,,,,,,,,,,,True,,,1.1167101999999431,space,1.3922570000031556,,,,,,,1,tathum,21,M,2022-10-31_16h11.04.524,GazeCueingPsychoPy,2022.1.3,60.5933176479181,
,1,1,100,,,,,4,8,72,0,,,,,,,,,,,,,,,,,,,,,,,,,,True,,,0.11662649999925634,space,0.6576337000005879,,,,,,,1,tathum,21,M,2022-10-31_16h11.04.524,GazeCueingPsychoPy,2022.1.3,60.5933176479181,
,2,2,350,,,,,4,9,73,13,,,,,,,,,,,,,,,,,,,,,,,,,,True,,,0.3666510000002745,space,3.5081433999985165,,,,,,,1,tathum,21,M,2022-10-31_16h11.04.524,GazeCueingPsychoPy,2022.1.3,60.5933176479181,
,1,2,850,,,,,4,10,74,6,,,,,,,,,,,,,,,,,,,,,,,,,,True,,,0.8667024999995192,space,1.9250317000005452,,,,,,,1,tathum,21,M,2022-10-31_16h11.04.524,GazeCueingPsychoPy,2022.1.3,60.5933176479181,
,2,1,850,,,,,4,11,75,10,,,,,,,,,,,,,,,,,,,,,,,,,,True,,,0.8667141999976593,space,1.4089846999995643,,,,,,,1,tathum,21,M,2022-10-31_16h11.04.524,GazeCueingPsychoPy,2022.1.3,60.5933176479181,
,1,2,100,,,,,4,12,76,4,,,,,,,,,,,,,,,,,,,,,,,,,,True,,,0.11680039999919245,space,0.7873514000020805,,,,,,,1,tathum,21,M,2022-10-31_16h11.04.524,GazeCueingPsychoPy,2022.1.3,60.5933176479181,
,2,1,1100,,,,,4,13,77,11,,,,,,,,,,,,,,,,,,,,,,,,,,True,,,1.1166783000007854,space,0.8312908000007155,,,,,,,1,tathum,21,M,2022-10-31_16h11.04.524,GazeCueingPsychoPy,2022.1.3,60.5933176479181,
,1,2,350,,,,,4,14,78,5,,,,,,,,,,,,,,,,,,,,,,,,,,True,,,0.36670320000121137,space,2.482088199998543,,,,,,,1,tathum,21,M,2022-10-31_16h11.04.524,GazeCueingPsychoPy,2022.1.3,60.5933176479181,
,2,2,1100,,,,,4,15,79,15,,,,,,,,,,,,,,,,,,,,,,,,,,True,,,1.1164482000021962,space,2.256307100000413,,,,,,,1,tathum,21,M,2022-10-31_16h11.04.524,GazeCueingPsychoPy,2022.1.3,60.5933176479181,
,2,2,1100,,,,,5,0,80,15,,,,,,,,,,,,,,,,,,,,,,,,,,False,,,1.1167042999986734,space,3.537468999998964,,,,,,,1,tathum,21,M,2022-10-31_16h11.04.524,GazeCueingPsychoPy,2022.1.3,60.5933176479181,
,2,2,350,,,,,5,1,81,13,,,,,,,,,,,,,,,,,,,,,,,,,,False,,,0.36673159999918425,space,3.7862593999998353,,,,,,,1,tathum,21,M,2022-10-31_16h11.04.524,GazeCueingPsychoPy,2022.1.3,60.5933176479181,
,1,1,100,,,,,5,2,82,0,,,,,,,,,,,,,,,,,,,,,,,,,,True,,,0.11668649999774061,space,1.1993419999998878,,,,,,,1,tathum,21,M,2022-10-31_16h11.04.524,GazeCueingPsychoPy,2022.1.3,60.5933176479181,
,2,2,100,,,,,5,3,83,12,,,,,,,,,,,,,,,,,,,,,,,,,,True,,,0.11666490000061458,space,0.8967785999993794,,,,,,,1,tathum,21,M,2022-10-31_16h11.04.524,GazeCueingPsychoPy,2022.1.3,60.5933176479181,
,1,1,350,,,,,5,4,84,1,,,,,,,,,,,,,,,,,,,,,,,,,,True,,,0.36662190000060946,space,1.352128000002267,,,,,,,1,tathum,21,M,2022-10-31_16h11.04.524,GazeCueingPsychoPy,2022.1.3,60.5933176479181,
,1,2,850,,,,,5,5,85,6,,,,,,,,,,,,,,,,,,,,,,,,,,True,,,0.8667131000001973,space,0.6487162000012177,,,,,,,1,tathum,21,M,2022-10-31_16h11.04.524,GazeCueingPsychoPy,2022.1.3,60.5933176479181,
,2,1,350,,,,,5,6,86,9,,,,,,,,,,,,,,,,,,,,,,,,,,True,,,0.3666649000006146,space,0.8421387999987928,,,,,,,1,tathum,21,M,2022-10-31_16h11.04.524,GazeCueingPsychoPy,2022.1.3,60.5933176479181,
,1,2,350,,,,,5,7,87,5,,,,,,,,,,,,,,,,,,,,,,,,,,True,,,0.36663299999781884,space,0.7843118000018876,,,,,,,1,tathum,21,M,2022-10-31_16h11.04.524,GazeCueingPsychoPy,2022.1.3,60.5933176479181,
,1,2,100,,,,,5,8,88,4,,,,,,,,,,,,,,,,,,,,,,,,,,True,,,0.11667519999900833,space,0.7725589000001492,,,,,,,1,tathum,21,M,2022-10-31_16h11.04.524,GazeCueingPsychoPy,2022.1.3,60.5933176479181,
,2,1,100,,,,,5,9,89,8,,,,,,,,,,,,,,,,,,,,,,,,,,False,,,0.11670889999732026,space,3.5507870000001276,,,,,,,1,tathum,21,M,2022-10-31_16h11.04.524,GazeCueingPsychoPy,2022.1.3,60.5933176479181,
,2,1,1100,,,,,5,10,90,11,,,,,,,,,,,,,,,,,,,,,,,,,,True,,,1.1167110999995202,space,0.7553684000013163,,,,,,,1,tathum,21,M,2022-10-31_16h11.04.524,GazeCueingPsychoPy,2022.1.3,60.5933176479181,
,2,1,850,,,,,5,11,91,10,,,,,,,,,,,,,,,,,,,,,,,,,,True,,,0.8666908999985026,space,0.5816010000016831,,,,,,,1,tathum,21,M,2022-10-31_16h11.04.524,GazeCueingPsychoPy,2022.1.3,60.5933176479181,
,2,2,850,,,,,5,12,92,14,,,,,,,,,,,,,,,,,,,,,,,,,,True,,,0.8667070000010426,space,0.6521584999973129,,,,,,,1,tathum,21,M,2022-10-31_16h11.04.524,GazeCueingPsychoPy,2022.1.3,60.5933176479181,
,1,2,1100,,,,,5,13,93,7,,,,,,,,,,,,,,,,,,,,,,,,,,True,,,1.1166367000005266,space,0.6202351000029012,,,,,,,1,tathum,21,M,2022-10-31_16h11.04.524,GazeCueingPsychoPy,2022.1.3,60.5933176479181,
,1,1,1100,,,,,5,14,94,3,,,,,,,,,,,,,,,,,,,,,,,,,,True,,,1.1167530999991868,space,0.6712216999985685,,,,,,,1,tathum,21,M,2022-10-31_16h11.04.524,GazeCueingPsychoPy,2022.1.3,60.5933176479181,
,1,1,850,,,,,5,15,95,2,,,,,,,,,,,,,,,,,,,,,,,,,,True,,,0.8667198000002827,space,0.7740718999993987,,,,,,,1,tathum,21,M,2022-10-31_16h11.04.524,GazeCueingPsychoPy,2022.1.3,60.5933176479181,
,1,2,350,,,,,6,0,96,5,,,,,,,,,,,,,,,,,,,,,,,,,,True,,,0.3666583000012906,space,0.5289978000000701,,,,,,,1,tathum,21,M,2022-10-31_16h11.04.524,GazeCueingPsychoPy,2022.1.3,60.5933176479181,
,2,1,850,,,,,6,1,97,10,,,,,,,,,,,,,,,,,,,,,,,,,,False,,,0.8667012000005343,space,4.225229200001195,,,,,,,1,tathum,21,M,2022-10-31_16h11.04.524,GazeCueingPsychoPy,2022.1.3,60.5933176479181,
,2,2,1100,,,,,6,2,98,15,,,,,,,,,,,,,,,,,,,,,,,,,,True,,,1.116694100001041,space,0.8118256999987352,,,,,,,1,tathum,21,M,2022-10-31_16h11.04.524,GazeCueingPsychoPy,2022.1.3,60.5933176479181,
,2,1,1100,,,,,6,3,99,11,,,,,,,,,,,,,,,,,,,,,,,,,,True,,,1.1167120999998588,space,1.1507893000016338,,,,,,,1,tathum,21,M,2022-10-31_16h11.04.524,GazeCueingPsychoPy,2022.1.3,60.5933176479181,
,1,1,850,,,,,6,4,100,2,,,,,,,,,,,,,,,,,,,,,,,,,,True,,,0.8665772000022116,space,0.7267108000014559,,,,,,,1,tathum,21,M,2022-10-31_16h11.04.524,GazeCueingPsychoPy,2022.1.3,60.5933176479181,
,1,2,1100,,,,,6,5,101,7,,,,,,,,,,,,,,,,,,,,,,,,,,True,,,1.1167165000006207,space,1.210031300000992,,,,,,,1,tathum,21,M,2022-10-31_16h11.04.524,GazeCueingPsychoPy,2022.1.3,60.5933176479181,
,2,1,100,,,,,6,6,102,8,,,,,,,,,,,,,,,,,,,,,,,,,,False,,,0.11668869999994058,space,2.483159400002478,,,,,,,1,tathum,21,M,2022-10-31_16h11.04.524,GazeCueingPsychoPy,2022.1.3,60.5933176479181,
,2,2,100,,,,,6,7,103,12,,,,,,,,,,,,,,,,,,,,,,,,,,True,,,0.11651690000144299,space,0.6738523000021814,,,,,,,1,tathum,21,M,2022-10-31_16h11.04.524,GazeCueingPsychoPy,2022.1.3,60.5933176479181,
,1,1,100,,,,,6,8,104,0,,,,,,,,,,,,,,,,,,,,,,,,,,True,,,0.11670380000214209,space,0.6616003999988607,,,,,,,1,tathum,21,M,2022-10-31_16h11.04.524,GazeCueingPsychoPy,2022.1.3,60.5933176479181,
,2,2,350,,,,,6,9,105,13,,,,,,,,,,,,,,,,,,,,,,,,,,True,,,0.3666793000011239,space,0.6867658000010124,,,,,,,1,tathum,21,M,2022-10-31_16h11.04.524,GazeCueingPsychoPy,2022.1.3,60.5933176479181,
,1,2,100,,,,,6,10,106,4,,,,,,,,,,,,,,,,,,,,,,,,,,True,,,0.11668650000137859,space,0.6563764000020456,,,,,,,1,tathum,21,M,2022-10-31_16h11.04.524,GazeCueingPsychoPy,2022.1.3,60.5933176479181,
,2,2,850,,,,,6,11,107,14,,,,,,,,,,,,,,,,,,,,,,,,,,True,,,0.8666506999979902,space,0.5629598000014084,,,,,,,1,tathum,21,M,2022-10-31_16h11.04.524,GazeCueingPsychoPy,2022.1.3,60.5933176479181,
,1,1,1100,,,,,6,12,108,3,,,,,,,,,,,,,,,,,,,,,,,,,,True,,,1.116639199997735,space,0.5925855000023148,,,,,,,1,tathum,21,M,2022-10-31_16h11.04.524,GazeCueingPsychoPy,2022.1.3,60.5933176479181,
,2,1,350,,,,,6,13,109,9,,,,,,,,,,,,,,,,,,,,,,,,,,True,,,0.36666320000222186,space,0.8017550000004121,,,,,,,1,tathum,21,M,2022-10-31_16h11.04.524,GazeCueingPsychoPy,2022.1.3,60.5933176479181,
,1,2,850,,,,,6,14,110,6,,,,,,,,,,,,,,,,,,,,,,,,,,False,,,0.8666696000000229,space,4.647864499998832,,,,,,,1,tathum,21,M,2022-10-31_16h11.04.524,GazeCueingPsychoPy,2022.1.3,60.5933176479181,
,1,1,350,,,,,6,15,111,1,,,,,,,,,,,,,,,,,,,,,,,,,,True,,,0.3666746000017156,space,0.6458456000000297,,,,,,,1,tathum,21,M,2022-10-31_16h11.04.524,GazeCueingPsychoPy,2022.1.3,60.5933176479181,
,2,2,100,,,,,7,0,112,12,,,,,,,,,,,,,,,,,,,,,,,,,,True,,,0.11662859999705688,space,0.6880043000019214,,,,,,,1,tathum,21,M,2022-10-31_16h11.04.524,GazeCueingPsychoPy,2022.1.3,60.5933176479181,
,1,1,1100,,,,,7,1,113,3,,,,,,,,,,,,,,,,,,,,,,,,,,True,,,1.116665199999261,space,0.5738788999988174,,,,,,,1,tathum,21,M,2022-10-31_16h11.04.524,GazeCueingPsychoPy,2022.1.3,60.5933176479181,
,1,2,350,,,,,7,2,114,5,,,,,,,,,,,,,,,,,,,,,,,,,,True,,,0.3666836999982479,space,0.7690954000026977,,,,,,,1,tathum,21,M,2022-10-31_16h11.04.524,GazeCueingPsychoPy,2022.1.3,60.5933176479181,
,1,1,850,,,,,7,3,115,2,,,,,,,,,,,,,,,,,,,,,,,,,,True,,,0.8667228000012983,space,0.5665975000010803,,,,,,,1,tathum,21,M,2022-10-31_16h11.04.524,GazeCueingPsychoPy,2022.1.3,60.5933176479181,
,2,2,350,,,,,7,4,116,13,,,,,,,,,,,,,,,,,,,,,,,,,,True,,,0.3666960000009567,space,0.6517858999977761,,,,,,,1,tathum,21,M,2022-10-31_16h11.04.524,GazeCueingPsychoPy,2022.1.3,60.5933176479181,
,1,2,1100,,,,,7,5,117,7,,,,,,,,,,,,,,,,,,,,,,,,,,True,,,1.1166790000024776,space,0.5596957999987353,,,,,,,1,tathum,21,M,2022-10-31_16h11.04.524,GazeCueingPsychoPy,2022.1.3,60.5933176479181,
,2,1,850,,,,,7,6,118,10,,,,,,,,,,,,,,,,,,,,,,,,,,True,,,0.8666850000008708,space,0.6554840999997396,,,,,,,1,tathum,21,M,2022-10-31_16h11.04.524,GazeCueingPsychoPy,2022.1.3,60.5933176479181,
,2,2,1100,,,,,7,7,119,15,,,,,,,,,,,,,,,,,,,,,,,,,,True,,,1.1166236999997636,space,0.9193004000007932,,,,,,,1,tathum,21,M,2022-10-31_16h11.04.524,GazeCueingPsychoPy,2022.1.3,60.5933176479181,
,2,1,100,,,,,7,8,120,8,,,,,,,,,,,,,,,,,,,,,,,,,,True,,,0.1166633000029833,space,0.5597221999996691,,,,,,,1,tathum,21,M,2022-10-31_16h11.04.524,GazeCueingPsychoPy,2022.1.3,60.5933176479181,
,2,1,1100,,,,,7,9,121,11,,,,,,,,,,,,,,,,,,,,,,,,,,True,,,1.1166529000001901,space,0.6515613999981724,,,,,,,1,tathum,21,M,2022-10-31_16h11.04.524,GazeCueingPsychoPy,2022.1.3,60.5933176479181,
,1,2,100,,,,,7,10,122,4,,,,,,,,,,,,,,,,,,,,,,,,,,True,,,0.11666640000112238,space,0.6207799000003433,,,,,,,1,tathum,21,M,2022-10-31_16h11.04.524,GazeCueingPsychoPy,2022.1.3,60.5933176479181,
,2,2,850,,,,,7,11,123,14,,,,,,,,,,,,,,,,,,,,,,,,,,False,,,0.8667053999997734,space,21.655401500000153,,,,,,,1,tathum,21,M,2022-10-31_16h11.04.524,GazeCueingPsychoPy,2022.1.3,60.5933176479181,
,1,1,350,,,,,7,12,124,1,,,,,,,,,,,,,,,,,,,,,,,,,,True,,,0.3667143999991822,space,0.7392828000010923,,,,,,,1,tathum,21,M,2022-10-31_16h11.04.524,GazeCueingPsychoPy,2022.1.3,60.5933176479181,
,1,1,100,,,,,7,13,125,0,,,,,,,,,,,,,,,,,,,,,,,,,,True,,,0.11669610000171815,space,0.8247866999990947,,,,,,,1,tathum,21,M,2022-10-31_16h11.04.524,GazeCueingPsychoPy,2022.1.3,60.5933176479181,
,2,1,350,,,,,7,14,126,9,,,,,,,,,,,,,,,,,,,,,,,,,,True,,,0.36670419999791193,space,1.458541799998784,,,,,,,1,tathum,21,M,2022-10-31_16h11.04.524,GazeCueingPsychoPy,2022.1.3,60.5933176479181,
,1,2,850,,,,,7,15,127,6,,,,,,,,,,,,,,,,,,,,,,,,,,True,,,0.8666813999989245,space,0.5960487000011199,,,,,,,1,tathum,21,M,2022-10-31_16h11.04.524,GazeCueingPsychoPy,2022.1.3,60.5933176479181,
,1,2,100,,,,,8,0,128,4,,,,,,,,,,,,,,,,,,,,,,,,,,True,,,0.11669909999909578,space,0.749242999998387,,,,,,,1,tathum,21,M,2022-10-31_16h11.04.524,GazeCueingPsychoPy,2022.1.3,60.5933176479181,
,1,1,1100,,,,,8,1,129,3,,,,,,,,,,,,,,,,,,,,,,,,,,True,,,1.1167042999986734,space,0.8423278000009304,,,,,,,1,tathum,21,M,2022-10-31_16h11.04.524,GazeCueingPsychoPy,2022.1.3,60.5933176479181,
,2,2,850,,,,,8,2,130,14,,,,,,,,,,,,,,,,,,,,,,,,,,True,,,0.8667144999999437,space,0.6202770999989298,,,,,,,1,tathum,21,M,2022-10-31_16h11.04.524,GazeCueingPsychoPy,2022.1.3,60.5933176479181,
,2,2,100,,,,,8,3,131,12,,,,,,,,,,,,,,,,,,,,,,,,,,True,,,0.11667820000002393,space,0.6930531999969389,,,,,,,1,tathum,21,M,2022-10-31_16h11.04.524,GazeCueingPsychoPy,2022.1.3,60.5933176479181,
,1,2,850,,,,,8,4,132,6,,,,,,,,,,,,,,,,,,,,,,,,,,True,,,0.8667022999979963,space,0.6481695000002219,,,,,,,1,tathum,21,M,2022-10-31_16h11.04.524,GazeCueingPsychoPy,2022.1.3,60.5933176479181,
,1,1,100,,,,,8,5,133,0,,,,,,,,,,,,,,,,,,,,,,,,,,True,,,0.11670439999943483,space,0.5429001999982574,,,,,,,1,tathum,21,M,2022-10-31_16h11.04.524,GazeCueingPsychoPy,2022.1.3,60.5933176479181,
,2,2,1100,,,,,8,6,134,15,,,,,,,,,,,,,,,,,,,,,,,,,,True,,,1.1166981000023952,space,0.7378649000020232,,,,,,,1,tathum,21,M,2022-10-31_16h11.04.524,GazeCueingPsychoPy,2022.1.3,60.5933176479181,
,2,1,100,,,,,8,7,135,8,,,,,,,,,,,,,,,,,,,,,,,,,,True,,,0.11676160000206437,space,1.618130899998505,,,,,,,1,tathum,21,M,2022-10-31_16h11.04.524,GazeCueingPsychoPy,2022.1.3,60.5933176479181,
,2,1,1100,,,,,8,8,136,11,,,,,,,,,,,,,,,,,,,,,,,,,,True,,,1.1167577999985951,space,1.1058878999974695,,,,,,,1,tathum,21,M,2022-10-31_16h11.04.524,GazeCueingPsychoPy,2022.1.3,60.5933176479181,
,2,2,350,,,,,8,9,137,13,,,,,,,,,,,,,,,,,,,,,,,,,,True,,,0.3666840999976557,space,0.8057426000013947,,,,,,,1,tathum,21,M,2022-10-31_16h11.04.524,GazeCueingPsychoPy,2022.1.3,60.5933176479181,
,2,1,850,,,,,8,10,138,10,,,,,,,,,,,,,,,,,,,,,,,,,,True,,,0.8666772999968089,space,0.7589912000003096,,,,,,,1,tathum,21,M,2022-10-31_16h11.04.524,GazeCueingPsychoPy,2022.1.3,60.5933176479181,
,1,1,350,,,,,8,11,139,1,,,,,,,,,,,,,,,,,,,,,,,,,,True,,,0.36669719999918016,space,0.9352781999987201,,,,,,,1,tathum,21,M,2022-10-31_16h11.04.524,GazeCueingPsychoPy,2022.1.3,60.5933176479181,
,1,2,1100,,,,,8,12,140,7,,,,,,,,,,,,,,,,,,,,,,,,,,False,,,1.1166416999985813,space,2.0650915000005625,,,,,,,1,tathum,21,M,2022-10-31_16h11.04.524,GazeCueingPsychoPy,2022.1.3,60.5933176479181,
,1,1,850,,,,,8,13,141,2,,,,,,,,,,,,,,,,,,,,,,,,,,True,,,0.8667314999984228,space,0.6794034000013198,,,,,,,1,tathum,21,M,2022-10-31_16h11.04.524,GazeCueingPsychoPy,2022.1.3,60.5933176479181,
,1,2,350,,,,,8,14,142,5,,,,,,,,,,,,,,,,,,,,,,,,,,True,,,0.366667199999938,space,0.6677232000001823,,,,,,,1,tathum,21,M,2022-10-31_16h11.04.524,GazeCueingPsychoPy,2022.1.3,60.5933176479181,
,2,1,350,,,,,8,15,143,9,,,,,,,,,,,,,,,,,,,,,,,,,,True,,,0.3666770000018005,space,1.888068199998088,,,,,,,1,tathum,21,M,2022-10-31_16h11.04.524,GazeCueingPsychoPy,2022.1.3,60.5933176479181,
,1,2,100,,,,,9,0,144,4,,,,,,,,,,,,,,,,,,,,,,,,,,True,,,0.11672990000079153,space,2.8375018000006094,,,,,,,1,tathum,21,M,2022-10-31_16h11.04.524,GazeCueingPsychoPy,2022.1.3,60.5933176479181,
,2,2,850,,,,,9,1,145,14,,,,,,,,,,,,,,,,,,,,,,,,,,True,,,0.8666871999994328,space,2.8583719999987807,,,,,,,1,tathum,21,M,2022-10-31_16h11.04.524,GazeCueingPsychoPy,2022.1.3,60.5933176479181,
,2,1,350,,,,,9,2,146,9,,,,,,,,,,,,,,,,,,,,,,,,,,True,,,0.3666685999996844,space,1.4449798999994528,,,,,,,1,tathum,21,M,2022-10-31_16h11.04.524,GazeCueingPsychoPy,2022.1.3,60.5933176479181,
,1,1,100,,,,,9,3,147,0,,,,,,,,,,,,,,,,,,,,,,,,,,True,,,0.11666260000129114,space,0.7066863999971247,,,,,,,1,tathum,21,M,2022-10-31_16h11.04.524,GazeCueingPsychoPy,2022.1.3,60.5933176479181,
,2,2,1100,,,,,9,4,148,15,,,,,,,,,,,,,,,,,,,,,,,,,,True,,,1.1167260000001988,space,11.993696399997134,,,,,,,1,tathum,21,M,2022-10-31_16h11.04.524,GazeCueingPsychoPy,2022.1.3,60.5933176479181,
,1,1,850,,,,,9,5,149,2,,,,,,,,,,,,,,,,,,,,,,,,,,True,,,0.8666869000007864,space,1.3098984000025666,,,,,,,1,tathum,21,M,2022-10-31_16h11.04.524,GazeCueingPsychoPy,2022.1.3,60.5933176479181,
,1,1,350,,,,,9,6,150,1,,,,,,,,,,,,,,,,,,,,,,,,,,True,,,0.36670910000248114,space,2.182824500003335,,,,,,,1,tathum,21,M,2022-10-31_16h11.04.524,GazeCueingPsychoPy,2022.1.3,60.5933176479181,
,1,2,850,,,,,9,7,151,6,,,,,,,,,,,,,,,,,,,,,,,,,,True,,,0.86671479999859,space,1.4337208999968425,,,,,,,1,tathum,21,M,2022-10-31_16h11.04.524,GazeCueingPsychoPy,2022.1.3,60.5933176479181,
,2,1,100,,,,,9,8,152,8,,,,,,,,,,,,,,,,,,,,,,,,,,True,,,0.11669930000061868,space,0.6135275999986334,,,,,,,1,tathum,21,M,2022-10-31_16h11.04.524,GazeCueingPsychoPy,2022.1.3,60.5933176479181,
,1,2,350,,,,,9,9,153,5,,,,,,,,,,,,,,,,,,,,,,,,,,True,,,0.3666746000017156,space,1.6488620999989507,,,,,,,1,tathum,21,M,2022-10-31_16h11.04.524,GazeCueingPsychoPy,2022.1.3,60.5933176479181,
,2,1,850,,,,,9,10,154,10,,,,,,,,,,,,,,,,,,,,,,,,,,True,,,0.8666856000018015,space,1.042476300000999,,,,,,,1,tathum,21,M,2022-10-31_16h11.04.524,GazeCueingPsychoPy,2022.1.3,60.5933176479181,
,1,2,1100,,,,,9,11,155,7,,,,,,,,,,,,,,,,,,,,,,,,,,True,,,1.1166684000017995,space,2.0518764999978885,,,,,,,1,tathum,21,M,2022-10-31_16h11.04.524,GazeCueingPsychoPy,2022.1.3,60.5933176479181,
,2,2,100,,,,,9,12,156,12,,,,,,,,,,,,,,,,,,,,,,,,,,True,,,0.11666410000179894,space,0.7426578000013251,,,,,,,1,tathum,21,M,2022-10-31_16h11.04.524,GazeCueingPsychoPy,2022.1.3,60.5933176479181,
,2,2,350,,,,,9,13,157,13,,,,,,,,,,,,,,,,,,,,,,,,,,True,,,0.36667899999883957,space,1.3781818999996176,,,,,,,1,tathum,21,M,2022-10-31_16h11.04.524,GazeCueingPsychoPy,2022.1.3,60.5933176479181,
,1,1,1100,,,,,9,14,158,3,,,,,,,,,,,,,,,,,,,,,,,,,,True,,,1.1166856000018015,space,2.197068900000886,,,,,,,1,tathum,21,M,2022-10-31_16h11.04.524,GazeCueingPsychoPy,2022.1.3,60.5933176479181,
,2,1,1100,,,,,9,15,159,11,,,,,,,,,,,,,,,,,,,,,,,,,,True,,,1.1166974999978265,space,0.913869899999554,,,,,,,1,tathum,21,M,2022-10-31_16h11.04.524,GazeCueingPsychoPy,2022.1.3,60.5933176479181,
,2,2,850,,,,,10,0,160,14,,,,,,,,,,,,,,,,,,,,,,,,,,True,,,0.8666903999983333,space,0.7292032000004838,,,,,,,1,tathum,21,M,2022-10-31_16h11.04.524,GazeCueingPsychoPy,2022.1.3,60.5933176479181,
,1,2,850,,,,,10,1,161,6,,,,,,,,,,,,,,,,,,,,,,,,,,True,,,0.8666204000001017,space,0.7050057000014931,,,,,,,1,tathum,21,M,2022-10-31_16h11.04.524,GazeCueingPsychoPy,2022.1.3,60.5933176479181,
,2,2,100,,,,,10,2,162,12,,,,,,,,,,,,,,,,,,,,,,,,,,True,,,0.11668469999858644,space,0.7057153999994625,,,,,,,1,tathum,21,M,2022-10-31_16h11.04.524,GazeCueingPsychoPy,2022.1.3,60.5933176479181,
,2,1,1100,,,,,10,3,163,11,,,,,,,,,,,,,,,,,,,,,,,,,,True,,,1.116721399997914,space,0.9748067000000447,,,,,,,1,tathum,21,M,2022-10-31_16h11.04.524,GazeCueingPsychoPy,2022.1.3,60.5933176479181,
,1,1,850,,,,,10,4,164,2,,,,,,,,,,,,,,,,,,,,,,,,,,True,,,0.8666647000027297,space,2.0887531000007584,,,,,,,1,tathum,21,M,2022-10-31_16h11.04.524,GazeCueingPsychoPy,2022.1.3,60.5933176479181,
,2,1,350,,,,,10,5,165,9,,,,,,,,,,,,,,,,,,,,,,,,,,True,,,0.36655009999958565,space,0.7645763999971678,,,,,,,1,tathum,21,M,2022-10-31_16h11.04.524,GazeCueingPsychoPy,2022.1.3,60.5933176479181,
,1,1,1100,,,,,10,6,166,3,,,,,,,,,,,,,,,,,,,,,,,,,,True,,,1.1167542000002868,space,2.4783806999985245,,,,,,,1,tathum,21,M,2022-10-31_16h11.04.524,GazeCueingPsychoPy,2022.1.3,60.5933176479181,
,1,2,350,,,,,10,7,167,5,,,,,,,,,,,,,,,,,,,,,,,,,,True,,,0.36665249999714433,space,1.5590752999996766,,,,,,,1,tathum,21,M,2022-10-31_16h11.04.524,GazeCueingPsychoPy,2022.1.3,60.5933176479181,
,2,1,100,,,,,10,8,168,8,,,,,,,,,,,,,,,,,,,,,,,,,,True,,,0.11671520000163582,space,2.464936600001238,,,,,,,1,tathum,21,M,2022-10-31_16h11.04.524,GazeCueingPsychoPy,2022.1.3,60.5933176479181,
,1,2,100,,,,,10,9,169,4,,,,,,,,,,,,,,,,,,,,,,,,,,True,,,0.1165962999984913,space,1.6283664999973553,,,,,,,1,tathum,21,M,2022-10-31_16h11.04.524,GazeCueingPsychoPy,2022.1.3,60.5933176479181,
,2,2,1100,,,,,10,10,170,15,,,,,,,,,,,,,,,,,,,,,,,,,,True,,,1.1167021999972349,space,2.0480912999992142,,,,,,,1,tathum,21,M,2022-10-31_16h11.04.524,GazeCueingPsychoPy,2022.1.3,60.5933176479181,
,1,1,350,,,,,10,11,171,1,,,,,,,,,,,,,,,,,,,,,,,,,,True,,,0.36666280000281404,space,1.6752861000022676,,,,,,,1,tathum,21,M,2022-10-31_16h11.04.524,GazeCueingPsychoPy,2022.1.3,60.5933176479181,
,1,1,100,,,,,10,12,172,0,,,,,,,,,,,,,,,,,,,,,,,,,,True,,,0.11671370000112802,space,4.236527799999749,,,,,,,1,tathum,21,M,2022-10-31_16h11.04.524,GazeCueingPsychoPy,2022.1.3,60.5933176479181,
,2,2,350,,,,,10,13,173,13,,,,,,,,,,,,,,,,,,,,,,,,,,True,,,0.36664160000145785,space,1.2600329000015336,,,,,,,1,tathum,21,M,2022-10-31_16h11.04.524,GazeCueingPsychoPy,2022.1.3,60.5933176479181,
,2,1,850,,,,,10,14,174,10,,,,,,,,,,,,,,,,,,,,,,,,,,True,,,0.8666730000004463,space,0.7639522999998007,,,,,,,1,tathum,21,M,2022-10-31_16h11.04.524,GazeCueingPsychoPy,2022.1.3,60.5933176479181,
,1,2,1100,,,,,10,15,175,7,,,,,,,,,,,,,,,,,,,,,,,,,,True,,,1.1167325999995228,space,1.8173275999979523,,,,,,,1,tathum,21,M,2022-10-31_16h11.04.524,GazeCueingPsychoPy,2022.1.3,60.5933176479181,
,1,2,850,,,,,11,0,176,6,,,,,,,,,,,,,,,,,,,,,,,,,,True,,,0.8666806000001088,space,0.6498440000032133,,,,,,,1,tathum,21,M,2022-10-31_16h11.04.524,GazeCueingPsychoPy,2022.1.3,60.5933176479181,
,2,2,350,,,,,11,1,177,13,,,,,,,,,,,,,,,,,,,,,,,,,,True,,,0.3666894999987562,space,0.6855280000017956,,,,,,,1,tathum,21,M,2022-10-31_16h11.04.524,GazeCueingPsychoPy,2022.1.3,60.5933176479181,
,1,2,100,,,,,11,2,178,4,,,,,,,,,,,,,,,,,,,,,,,,,,True,,,0.11666880000120727,space,0.6988999999994121,,,,,,,1,tathum,21,M,2022-10-31_16h11.04.524,GazeCueingPsychoPy,2022.1.3,60.5933176479181,
,2,2,100,,,,,11,3,179,12,,,,,,,,,,,,,,,,,,,,,,,,,,True,,,0.11665329999959795,space,1.0854542999986734,,,,,,,1,tathum,21,M,2022-10-31_16h11.04.524,GazeCueingPsychoPy,2022.1.3,60.5933176479181,
,2,2,1100,,,,,11,4,180,15,,,,,,,,,,,,,,,,,,,,,,,,,,True,,,1.116645800000697,space,2.773875800001406,,,,,,,1,tathum,21,M,2022-10-31_16h11.04.524,GazeCueingPsychoPy,2022.1.3,60.5933176479181,
,2,1,1100,,,,,11,5,181,11,,,,,,,,,,,,,,,,,,,,,,,,,,True,,,1.116676899997401,space,2.0337005000001227,,,,,,,1,tathum,21,M,2022-10-31_16h11.04.524,GazeCueingPsychoPy,2022.1.3,60.5933176479181,
,1,1,100,,,,,11,6,182,0,,,,,,,,,,,,,,,,,,,,,,,,,,True,,,0.1166720000001078,space,1.1883698999990884,,,,,,,1,tathum,21,M,2022-10-31_16h11.04.524,GazeCueingPsychoPy,2022.1.3,60.5933176479181,
,2,1,850,,,,,11,7,183,10,,,,,,,,,,,,,,,,,,,,,,,,,,True,,,0.8666320999982418,space,1.8929229000023042,,,,,,,1,tathum,21,M,2022-10-31_16h11.04.524,GazeCueingPsychoPy,2022.1.3,60.5933176479181,
,1,2,1100,,,,,11,8,184,7,,,,,,,,,,,,,,,,,,,,,,,,,,True,,,1.116669200000615,space,1.1769109000015305,,,,,,,1,tathum,21,M,2022-10-31_16h11.04.524,GazeCueingPsychoPy,2022.1.3,60.5933176479181,
,2,1,350,,,,,11,9,185,9,,,,,,,,,,,,,,,,,,,,,,,,,,True,,,0.36668510000163224,space,0.8137390000010782,,,,,,,1,tathum,21,M,2022-10-31_16h11.04.524,GazeCueingPsychoPy,2022.1.3,60.5933176479181,
,2,2,850,,,,,11,10,186,14,,,,,,,,,,,,,,,,,,,,,,,,,,True,,,0.8666667000034067,space,0.6339466999997967,,,,,,,1,tathum,21,M,2022-10-31_16h11.04.524,GazeCueingPsychoPy,2022.1.3,60.5933176479181,
,1,1,850,,,,,11,11,187,2,,,,,,,,,,,,,,,,,,,,,,,,,,True,,,0.8667156999981671,space,0.8410316999979841,,,,,,,1,tathum,21,M,2022-10-31_16h11.04.524,GazeCueingPsychoPy,2022.1.3,60.5933176479181,
,1,2,350,,,,,11,12,188,5,,,,,,,,,,,,,,,,,,,,,,,,,,True,,,0.3666957999994338,space,0.876927400000568,,,,,,,1,tathum,21,M,2022-10-31_16h11.04.524,GazeCueingPsychoPy,2022.1.3,60.5933176479181,
,1,1,350,,,,,11,13,189,1,,,,,,,,,,,,,,,,,,,,,,,,,,True,,,0.36669289999917964,space,1.4075613999993948,,,,,,,1,tathum,21,M,2022-10-31_16h11.04.524,GazeCueingPsychoPy,2022.1.3,60.5933176479181,
,2,1,100,,,,,11,14,190,8,,,,,,,,,,,,,,,,,,,,,,,,,,True,,,0.11668859999917913,space,0.9584347999989404,,,,,,,1,tathum,21,M,2022-10-31_16h11.04.524,GazeCueingPsychoPy,2022.1.3,60.5933176479181,
,1,1,1100,,,,,11,15,191,3,,,,,,,,,,,,,,,,,,,,,,,,,,True,,,1.116688799997064,space,0.6670441000023857,,,,,,,1,tathum,21,M,2022-10-31_16h11.04.524,GazeCueingPsychoPy,2022.1.3,60.5933176479181,
,2,1,100,,,,,12,0,192,8,,,,,,,,,,,,,,,,,,,,,,,,,,True,,,0.11668839999765623,space,0.8840689999997267,,,,,,,1,tathum,21,M,2022-10-31_16h11.04.524,GazeCueingPsychoPy,2022.1.3,60.5933176479181,
,2,1,350,,,,,12,1,193,9,,,,,,,,,,,,,,,,,,,,,,,,,,True,,,0.36667170000146143,space,0.5906887999990431,,,,,,,1,tathum,21,M,2022-10-31_16h11.04.524,GazeCueingPsychoPy,2022.1.3,60.5933176479181,
,2,2,850,,,,,12,2,194,14,,,,,,,,,,,,,,,,,,,,,,,,,,True,,,0.8666059000024688,space,0.7807484000004479,,,,,,,1,tathum,21,M,2022-10-31_16h11.04.524,GazeCueingPsychoPy,2022.1.3,60.5933176479181,
,1,1,1100,,,,,12,3,195,3,,,,,,,,,,,,,,,,,,,,,,,,,,True,,,1.116611899997224,space,0.9036171999978251,,,,,,,1,tathum,21,M,2022-10-31_16h11.04.524,GazeCueingPsychoPy,2022.1.3,60.5933176479181,
,1,2,100,,,,,12,4,196,4,,,,,,,,,,,,,,,,,,,,,,,,,,True,,,0.11668350000036298,space,0.7025724000013724,,,,,,,1,tathum,21,M,2022-10-31_16h11.04.524,GazeCueingPsychoPy,2022.1.3,60.5933176479181,
,1,1,350,,,,,12,5,197,1,,,,,,,,,,,,,,,,,,,,,,,,,,True,,,0.3667072000025655,space,1.0803452000000107,,,,,,,1,tathum,21,M,2022-10-31_16h11.04.524,GazeCueingPsychoPy,2022.1.3,60.5933176479181,
,1,1,850,,,,,12,6,198,2,,,,,,,,,,,,,,,,,,,,,,,,,,True,,,0.8667463999991014,space,2.4670016999989457,,,,,,,1,tathum,21,M,2022-10-31_16h11.04.524,GazeCueingPsychoPy,2022.1.3,60.5933176479181,
,2,1,850,,,,,12,7,199,10,,,,,,,,,,,,,,,,,,,,,,,,,,True,,,0.866699600002903,space,1.061490000000049,,,,,,,1,tathum,21,M,2022-10-31_16h11.04.524,GazeCueingPsychoPy,2022.1.3,60.5933176479181,
,2,2,350,,,,,12,8,200,13,,,,,,,,,,,,,,,,,,,,,,,,,,False,,,0.36657719999857363,space,5.281385600002977,,,,,,,1,tathum,21,M,2022-10-31_16h11.04.524,GazeCueingPsychoPy,2022.1.3,60.5933176479181,
,1,2,1100,,,,,12,9,201,7,,,,,,,,,,,,,,,,,,,,,,,,,,True,,,1.1167053999997734,space,0.9561388000001898,,,,,,,1,tathum,21,M,2022-10-31_16h11.04.524,GazeCueingPsychoPy,2022.1.3,60.5933176479181,
,1,2,850,,,,,12,10,202,6,,,,,,,,,,,,,,,,,,,,,,,,,,True,,,0.8667023000016343,space,1.653778299998521,,,,,,,1,tathum,21,M,2022-10-31_16h11.04.524,GazeCueingPsychoPy,2022.1.3,60.5933176479181,
,2,2,100,,,,,12,11,203,12,,,,,,,,,,,,,,,,,,,,,,,,,,True,,,0.11665439999705995,space,0.7267791000012949,,,,,,,1,tathum,21,M,2022-10-31_16h11.04.524,GazeCueingPsychoPy,2022.1.3,60.5933176479181,
,2,2,1100,,,,,12,12,204,15,,,,,,,,,,,,,,,,,,,,,,,,,,True,,,1.1167122999977437,space,0.5469978000000992,,,,,,,1,tathum,21,M,2022-10-31_16h11.04.524,GazeCueingPsychoPy,2022.1.3,60.5933176479181,
,2,1,1100,,,,,12,13,205,11,,,,,,,,,,,,,,,,,,,,,,,,,,True,,,1.1166919999996026,space,4.817797899999277,,,,,,,1,tathum,21,M,2022-10-31_16h11.04.524,GazeCueingPsychoPy,2022.1.3,60.5933176479181,
,1,2,350,,,,,12,14,206,5,,,,,,,,,,,,,,,,,,,,,,,,,,True,,,0.36667450000095414,space,0.9912441999986186,,,,,,,1,tathum,21,M,2022-10-31_16h11.04.524,GazeCueingPsychoPy,2022.1.3,60.5933176479181,
,1,1,100,,,,,12,15,207,0,,,,,,,,,,,,,,,,,,,,,,,,,,True,,,0.11665349999748287,space,0.6056672999984585,,,,,,,1,tathum,21,M,2022-10-31_16h11.04.524,GazeCueingPsychoPy,2022.1.3,60.5933176479181,
,1,2,100,,,,,13,0,208,4,,,,,,,,,,,,,,,,,,,,,,,,,,True,,,0.11662839999917196,space,1.1666283999984444,,,,,,,1,tathum,21,M,2022-10-31_16h11.04.524,GazeCueingPsychoPy,2022.1.3,60.5933176479181,
,2,1,350,,,,,13,1,209,9,,,,,,,,,,,,,,,,,,,,,,,,,,True,,,0.36667270000179997,space,3.6490576999967743,,,,,,,1,tathum,21,M,2022-10-31_16h11.04.524,GazeCueingPsychoPy,2022.1.3,60.5933176479181,
,2,2,100,,,,,13,2,210,12,,,,,,,,,,,,,,,,,,,,,,,,,,True,,,0.11669909999909578,space,2.8197149000006902,,,,,,,1,tathum,21,M,2022-10-31_16h11.04.524,GazeCueingPsychoPy,2022.1.3,60.5933176479181,
,1,2,1100,,,,,13,3,211,7,,,,,,,,,,,,,,,,,,,,,,,,,,True,,,1.116661700001714,space,3.8347813000000315,,,,,,,1,tathum,21,M,2022-10-31_16h11.04.524,GazeCueingPsychoPy,2022.1.3,60.5933176479181,
,1,1,350,,,,,13,4,212,1,,,,,,,,,,,,,,,,,,,,,,,,,,True,,,0.3666691000034916,space,2.0659395000002405,,,,,,,1,tathum,21,M,2022-10-31_16h11.04.524,GazeCueingPsychoPy,2022.1.3,60.5933176479181,
,2,2,850,,,,,13,5,213,14,,,,,,,,,,,,,,,,,,,,,,,,,,True,,,0.8666723999995156,space,1.3984553000009328,,,,,,,1,tathum,21,M,2022-10-31_16h11.04.524,GazeCueingPsychoPy,2022.1.3,60.5933176479181,
,1,2,350,,,,,13,6,214,5,,,,,,,,,,,,,,,,,,,,,,,,,,True,,,0.3666640000010375,space,4.061476499999117,,,,,,,1,tathum,21,M,2022-10-31_16h11.04.524,GazeCueingPsychoPy,2022.1.3,60.5933176479181,
,2,2,1100,,,,,13,7,215,15,,,,,,,,,,,,,,,,,,,,,,,,,,True,,,1.1167058999999426,space,1.699727700000949,,,,,,,1,tathum,21,M,2022-10-31_16h11.04.524,GazeCueingPsychoPy,2022.1.3,60.5933176479181,
,1,1,1100,,,,,13,8,216,3,,,,,,,,,,,,,,,,,,,,,,,,,,True,,,1.1166611999979068,space,1.3513953999972728,,,,,,,1,tathum,21,M,2022-10-31_16h11.04.524,GazeCueingPsychoPy,2022.1.3,60.5933176479181,
,1,1,100,,,,,13,9,217,0,,,,,,,,,,,,,,,,,,,,,,,,,,True,,,0.1166616000009526,space,2.309370699997089,,,,,,,1,tathum,21,M,2022-10-31_16h11.04.524,GazeCueingPsychoPy,2022.1.3,60.5933176479181,
,2,1,1100,,,,,13,10,218,11,,,,,,,,,,,,,,,,,,,,,,,,,,True,,,1.1166893999979948,space,0.794545199998538,,,,,,,1,tathum,21,M,2022-10-31_16h11.04.524,GazeCueingPsychoPy,2022.1.3,60.5933176479181,
,2,1,850,,,,,13,11,219,10,,,,,,,,,,,,,,,,,,,,,,,,,,True,,,0.8666918999988411,space,0.8776803000000655,,,,,,,1,tathum,21,M,2022-10-31_16h11.04.524,GazeCueingPsychoPy,2022.1.3,60.5933176479181,
,1,2,850,,,,,13,12,220,6,,,,,,,,,,,,,,,,,,,,,,,,,,True,,,0.8666990000019723,space,0.7408897999994224,,,,,,,1,tathum,21,M,2022-10-31_16h11.04.524,GazeCueingPsychoPy,2022.1.3,60.5933176479181,
,2,1,100,,,,,13,13,221,8,,,,,,,,,,,,,,,,,,,,,,,,,,True,,,0.1166650999984995,space,0.6691565999972227,,,,,,,1,tathum,21,M,2022-10-31_16h11.04.524,GazeCueingPsychoPy,2022.1.3,60.5933176479181,
,2,2,350,,,,,13,14,222,13,,,,,,,,,,,,,,,,,,,,,,,,,,True,,,0.3666702999980771,space,1.4885399999984656,,,,,,,1,tathum,21,M,2022-10-31_16h11.04.524,GazeCueingPsychoPy,2022.1.3,60.5933176479181,
,1,1,850,,,,,13,15,223,2,,,,,,,,,,,,,,,,,,,,,,,,,,True,,,0.8666849999972328,space,0.7172409000013431,,,,,,,1,tathum,21,M,2022-10-31_16h11.04.524,GazeCueingPsychoPy,2022.1.3,60.5933176479181,
,2,1,100,,,,,14,0,224,8,,,,,,,,,,,,,,,,,,,,,,,,,,True,,,0.11665870000069845,space,1.633265600001323,,,,,,,1,tathum,21,M,2022-10-31_16h11.04.524,GazeCueingPsychoPy,2022.1.3,60.5933176479181,
,2,2,100,,,,,14,1,225,12,,,,,,,,,,,,,,,,,,,,,,,,,,True,,,0.11666340000010678,space,3.1901800999985426,,,,,,,1,tathum,21,M,2022-10-31_16h11.04.524,GazeCueingPsychoPy,2022.1.3,60.5933176479181,
,2,2,350,,,,,14,2,226,13,,,,,,,,,,,,,,,,,,,,,,,,,,True,,,0.36667120000129216,space,0.7239498000017193,,,,,,,1,tathum,21,M,2022-10-31_16h11.04.524,GazeCueingPsychoPy,2022.1.3,60.5933176479181,
,1,2,100,,,,,14,3,227,4,,,,,,,,,,,,,,,,,,,,,,,,,,True,,,0.1166732999990927,space,1.076993599999696,,,,,,,1,tathum,21,M,2022-10-31_16h11.04.524,GazeCueingPsychoPy,2022.1.3,60.5933176479181,
,1,2,850,,,,,14,4,228,6,,,,,,,,,,,,,,,,,,,,,,,,,,True,,,0.8666497999984131,space,1.181748899998638,,,,,,,1,tathum,21,M,2022-10-31_16h11.04.524,GazeCueingPsychoPy,2022.1.3,60.5933176479181,
,1,2,1100,,,,,14,5,229,7,,,,,,,,,,,,,,,,,,,,,,,,,,True,,,1.1166383999989193,space,1.235760700001265,,,,,,,1,tathum,21,M,2022-10-31_16h11.04.524,GazeCueingPsychoPy,2022.1.3,60.5933176479181,
,2,2,850,,,,,14,6,230,14,,,,,,,,,,,,,,,,,,,,,,,,,,True,,,0.8667074999975739,space,0.5898686000000453,,,,,,,1,tathum,21,M,2022-10-31_16h11.04.524,GazeCueingPsychoPy,2022.1.3,60.5933176479181,
,1,1,850,,,,,14,7,231,2,,,,,,,,,,,,,,,,,,,,,,,,,,True,,,0.8666924999997718,space,0.6463674000005994,,,,,,,1,tathum,21,M,2022-10-31_16h11.04.524,GazeCueingPsychoPy,2022.1.3,60.5933176479181,
,1,2,350,,,,,14,8,232,5,,,,,,,,,,,,,,,,,,,,,,,,,,True,,,0.36674199999833945,space,0.6533870999992359,,,,,,,1,tathum,21,M,2022-10-31_16h11.04.524,GazeCueingPsychoPy,2022.1.3,60.5933176479181,
,2,1,350,,,,,14,9,233,9,,,,,,,,,,,,,,,,,,,,,,,,,,True,,,0.36672449999969103,space,2.247355700001208,,,,,,,1,tathum,21,M,2022-10-31_16h11.04.524,GazeCueingPsychoPy,2022.1.3,60.5933176479181,
,1,1,100,,,,,14,10,234,0,,,,,,,,,,,,,,,,,,,,,,,,,,True,,,0.1166613999994297,space,0.8453384999993432,,,,,,,1,tathum,21,M,2022-10-31_16h11.04.524,GazeCueingPsychoPy,2022.1.3,60.5933176479181,
,2,2,1100,,,,,14,11,235,15,,,,,,,,,,,,,,,,,,,,,,,,,,True,,,1.1166916999973182,space,2.480417299997498,,,,,,,1,tathum,21,M,2022-10-31_16h11.04.524,GazeCueingPsychoPy,2022.1.3,60.5933176479181,
,1,1,1100,,,,,14,12,236,3,,,,,,,,,,,,,,,,,,,,,,,,,,True,,,1.116691900002479,space,0.7386387000005925,,,,,,,1,tathum,21,M,2022-10-31_16h11.04.524,GazeCueingPsychoPy,2022.1.3,60.5933176479181,
,2,1,850,,,,,14,13,237,10,,,,,,,,,,,,,,,,,,,,,,,,,,True,,,0.8666983000002801,space,2.5962728000013158,,,,,,,1,tathum,21,M,2022-10-31_16h11.04.524,GazeCueingPsychoPy,2022.1.3,60.5933176479181,
,2,1,1100,,,,,14,14,238,11,,,,,,,,,,,,,,,,,,,,,,,,,,True,,,1.1166997000000265,space,0.8122671999990416,,,,,,,1,tathum,21,M,2022-10-31_16h11.04.524,GazeCueingPsychoPy,2022.1.3,60.5933176479181,
,1,1,350,,,,,14,15,239,1,,,,,,,,,,,,,,,,,,,,,,,,,,True,,,0.3666388999990886,space,1.4447873000026448,,,,,,,1,tathum,21,M,2022-10-31_16h11.04.524,GazeCueingPsychoPy,2022.1.3,60.5933176479181,
,2,1,1100,,,,,15,0,240,11,,,,,,,,,,,,,,,,,,,,,,,,,,True,,,1.1166637999995146,space,0.8909601000013936,,,,,,,1,tathum,21,M,2022-10-31_16h11.04.524,GazeCueingPsychoPy,2022.1.3,60.5933176479181,
,1,2,1100,,,,,15,1,241,7,,,,,,,,,,,,,,,,,,,,,,,,,,True,,,1.1166689000019687,space,0.7262416999983543,,,,,,,1,tathum,21,M,2022-10-31_16h11.04.524,GazeCueingPsychoPy,2022.1.3,60.5933176479181,
,2,2,100,,,,,15,2,242,12,,,,,,,,,,,,,,,,,,,,,,,,,,True,,,0.1167118000012124,space,0.8133855000014591,,,,,,,1,tathum,21,M,2022-10-31_16h11.04.524,GazeCueingPsychoPy,2022.1.3,60.5933176479181,
,1,1,850,,,,,15,3,243,2,,,,,,,,,,,,,,,,,,,,,,,,,,True,,,0.866681300001801,space,0.8292421000005561,,,,,,,1,tathum,21,M,2022-10-31_16h11.04.524,GazeCueingPsychoPy,2022.1.3,60.5933176479181,
,1,1,1100,,,,,15,4,244,3,,,,,,,,,,,,,,,,,,,,,,,,,,True,,,1.116690800001379,space,0.6095754999987548,,,,,,,1,tathum,21,M,2022-10-31_16h11.04.524,GazeCueingPsychoPy,2022.1.3,60.5933176479181,
,1,1,350,,,,,15,5,245,1,,,,,,,,,,,,,,,,,,,,,,,,,,True,,,0.36667579999993904,space,0.6707943000001251,,,,,,,1,tathum,21,M,2022-10-31_16h11.04.524,GazeCueingPsychoPy,2022.1.3,60.5933176479181,
,2,1,350,,,,,15,6,246,9,,,,,,,,,,,,,,,,,,,,,,,,,,True,,,0.36666219999824534,space,0.8228689000025042,,,,,,,1,tathum,21,M,2022-10-31_16h11.04.524,GazeCueingPsychoPy,2022.1.3,60.5933176479181,
,2,2,1100,,,,,15,7,247,15,,,,,,,,,,,,,,,,,,,,,,,,,,True,,,1.1167335999998613,space,0.6927859999996144,,,,,,,1,tathum,21,M,2022-10-31_16h11.04.524,GazeCueingPsychoPy,2022.1.3,60.5933176479181,
,2,1,100,,,,,15,8,248,8,,,,,,,,,,,,,,,,,,,,,,,,,,True,,,0.11667689999740105,space,0.6313398000020243,,,,,,,1,tathum,21,M,2022-10-31_16h11.04.524,GazeCueingPsychoPy,2022.1.3,60.5933176479181,
,1,1,100,,,,,15,9,249,0,,,,,,,,,,,,,,,,,,,,,,,,,,True,,,0.11668379999900935,space,1.0371229000011226,,,,,,,1,tathum,21,M,2022-10-31_16h11.04.524,GazeCueingPsychoPy,2022.1.3,60.5933176479181,
,1,2,850,,,,,15,10,250,6,,,,,,,,,,,,,,,,,,,,,,,,,,True,,,0.8666846999985864,space,0.8706218000006629,,,,,,,1,tathum,21,M,2022-10-31_16h11.04.524,GazeCueingPsychoPy,2022.1.3,60.5933176479181,
,1,2,350,,,,,15,11,251,5,,,,,,,,,,,,,,,,,,,,,,,,,,True,,,0.3666649000006146,space,0.7314104999968549,,,,,,,1,tathum,21,M,2022-10-31_16h11.04.524,GazeCueingPsychoPy,2022.1.3,60.5933176479181,
,2,1,850,,,,,15,12,252,10,,,,,,,,,,,,,,,,,,,,,,,,,,True,,,0.8666799999991781,space,0.6339242000030936,,,,,,,1,tathum,21,M,2022-10-31_16h11.04.524,GazeCueingPsychoPy,2022.1.3,60.5933176479181,
,1,2,100,,,,,15,13,253,4,,,,,,,,,,,,,,,,,,,,,,,,,,True,,,0.1166732999990927,space,0.7805662000027951,,,,,,,1,tathum,21,M,2022-10-31_16h11.04.524,GazeCueingPsychoPy,2022.1.3,60.5933176479181,
,2,2,350,,,,,15,14,254,13,,,,,,,,,,,,,,,,,,,,,,,,,,True,,,0.3666746000017156,space,0.6345541000009689,,,,,,,1,tathum,21,M,2022-10-31_16h11.04.524,GazeCueingPsychoPy,2022.1.3,60.5933176479181,
,2,2,850,,,,,15,15,255,14,,,,,,,,,,,,,,,,,,,,,,,,,,True,,,0.8667791000007128,space,0.7635195000002568,,,,,,,1,tathum,21,M,2022-10-31_16h11.04.524,GazeCueingPsychoPy,2022.1.3,60.5933176479181,
,,,,,,,,,,,,,,,,,,,,,,,,,,,,,,,,,,,,,,,,,,,space,4.5746531000004325,1795.011719000002,None,,,1,tathum,21,M,2022-10-31_16h11.04.524,GazeCueingPsychoPy,2022.1.3,60.5933176479181,
,,,,,,,,,,,,,,,,,,,,,,,,,,,,,,,,,,,,,,,,,,,,,,,1795.011719000002,None,,,,,,,,,
